Wavenumber (1/cm),Raman intensity (1/cm)
-467.954,22.0
-465.794,32.0
-463.635,28.0
-461.476,24.0
-459.318,36.0
-457.162,32.0
-455.005,34.0
-452.85,22.0
-450.695,24.0
-448.54,32.0
-446.387,34.0
-444.235,30.0
-442.083,40.0
-439.932,38.0
-437.782,34.0
-435.632,26.0
-433.483,26.0
-431.335,38.0
-429.187,34.0
-427.041,24.0
-424.895,18.0
-422.749,46.0
-420.604,24.0
-418.46,40.0
-416.318,24.0
-414.176,30.0
-412.034,26.0
-409.894,34.0
-407.753,32.0
-405.613,32.0
-403.475,36.0
-401.337,30.0
-399.2,30.0
-397.063,32.0
-394.928,24.0
-392.793,20.0
-390.658,28.0
-388.525,40.0
-386.392,30.0
-384.26,38.0
-382.129,32.0
-379.998,38.0
-377.868,18.0
-375.739,30.0
-373.611,32.0
-371.482,34.0
-369.355,36.0
-367.229,34.0
-365.103,28.0
-362.98,24.0
-360.855,30.0
-358.732,34.0
-356.609,34.0
-354.487,38.0
-352.365,32.0
-350.246,30.0
-348.125,36.0
-346.006,34.0
-343.888,38.0
-341.77,44.0
-339.654,18.0
-337.537,34.0
-335.423,36.0
-333.307,24.0
-331.194,34.0
-329.08,32.0
-326.968,26.0
-324.856,36.0
-322.744,34.0
-320.634,34.0
-318.525,26.0
-316.416,30.0
-314.307,42.0
-312.199,32.0
-310.092,48.0
-307.986,32.0
-305.881,42.0
-303.776,34.0
-301.672,30.0
-299.569,36.0
-297.467,36.0
-295.365,34.0
-293.264,30.0
-291.163,44.0
-289.063,34.0
-286.965,34.0
-284.867,26.0
-282.769,36.0
-280.672,32.0
-278.576,28.0
-276.481,40.0
-274.386,36.0
-272.292,32.0
-270.198,32.0
-268.106,30.0
-266.015,38.0
-263.923,32.0
-261.833,40.0
-259.743,28.0
-257.654,34.0
-255.565,34.0
-253.478,34.0
-251.391,34.0
-249.305,36.0
-247.219,28.0
-245.135,42.0
-243.05,36.0
-240.967,38.0
-238.884,26.0
-236.803,28.0
-234.722,36.0
-232.641,24.0
-230.561,34.0
-228.482,32.0
-226.404,40.0
-224.325,28.0
-222.249,32.0
-220.172,38.0
-218.097,26.0
-216.022,28.0
-213.948,38.0
-211.874,38.0
-209.801,44.0
-207.73,24.0
-205.658,36.0
-203.587,26.0
-201.517,40.0
-199.448,30.0
-197.379,26.0
-195.311,34.0
-193.244,26.0
-191.177,34.0
-189.111,24.0
-187.046,32.0
-184.982,28.0
-182.918,34.0
-180.856,38.0
-178.793,38.0
-176.731,32.0
-174.67,28.0
-172.611,42.0
-170.551,36.0
-168.492,42.0
-166.434,36.0
-164.376,32.0
-162.32,26.0
-160.263,42.0
-158.208,30.0
-156.153,32.0
-154.099,46.0
-152.046,34.0
-149.993,38.0
-147.941,22.0
-145.89,32.0
-143.84,32.0
-141.789,30.0
-139.74,34.0
-137.692,38.0
-135.644,18.0
-133.597,30.0
-131.551,34.0
-129.505,42.0
-127.461,38.0
-125.416,42.0
-123.372,32.0
-121.329,34.0
-119.287,42.0
-117.246,32.0
-115.205,36.0
-113.164,24.0
-111.125,36.0
-109.086,38.0
-107.048,32.0
-105.01,32.0
-102.974,38.0
-100.938,36.0
-98.9018,38.0
-96.8674,34.0
-94.8336,32.0
-92.8005,32.0
-90.767,34.0
-88.7352,32.0
-86.704,38.0
-84.6734,38.0
-82.6435,36.0
-80.6142,34.0
-78.5856,30.0
-76.5576,34.0
-74.5302,32.0
-72.5045,36.0
-70.4785,34.0
-68.453,36.0
-66.4283,32.0
-64.4051,38.0
-62.3816,28.0
-60.3587,34.0
-58.3375,34.0
-56.3159,30.0
-54.296,32.0
-52.2757,32.0
-50.257,40.0
-48.2389,34.0
-46.2206,40.0
-44.2038,32.0
-42.1877,38.0
-40.1722,38.0
-38.1573,38.0
-36.1421,38.0
-34.1285,44.0
-32.1156,38.0
-30.1032,32.0
-28.0916,36.0
-26.0815,50.0
-24.0711,38.0
-22.0613,46.0
-20.0522,52.0
-18.0436,68.0
-16.0367,66.0
-14.0295,66.0
-12.0229,74.0
-10.0179,112.0
-8.01252,170.0
-6.00878,428.0
-4.00468,2348.0
-2.0022,8292.0
0.000633835,8746.0
2.00185,4622.0
4.00244,2896.0
6.0024,360.0
8.00273,152.0
10.0014,118.0
11.9995,78.0
13.997,82.0
15.9938,58.0
17.99,62.0
19.9856,56.0
21.9805,48.0
23.9748,30.0
25.9685,48.0
27.9616,42.0
29.953,38.0
31.9449,44.0
33.936,42.0
35.9256,40.0
37.9156,34.0
39.9049,46.0
41.8926,38.0
43.8797,44.0
45.8672,40.0
47.853,36.0
49.8392,40.0
51.8238,40.0
53.8078,48.0
55.7912,52.0
57.7749,64.0
59.7571,86.0
61.7386,86.0
63.7195,106.0
65.6997,126.0
67.6794,146.0
69.6584,152.0
71.6368,180.0
73.6136,146.0
75.5908,148.0
77.5674,136.0
79.5433,142.0
81.5177,134.0
83.4924,126.0
85.4665,110.0
87.439,124.0
89.4118,132.0
91.3831,134.0
93.3538,118.0
95.3248,130.0
97.2942,136.0
99.263,150.0
101.232,120.0
103.2,132.0
105.167,108.0
107.133,114.0
109.099,110.0
111.064,128.0
113.029,106.0
114.993,92.0
116.956,98.0
118.919,98.0
120.881,98.0
122.841,90.0
124.802,94.0
126.762,106.0
128.721,106.0
130.68,94.0
132.638,88.0
134.595,86.0
136.552,92.0
138.508,92.0
140.463,100.0
142.419,100.0
144.372,92.0
146.326,96.0
148.278,106.0
150.23,96.0
152.183,92.0
154.133,82.0
156.084,92.0
158.033,84.0
159.982,70.0
161.929,72.0
163.877,84.0
165.824,92.0
167.771,84.0
169.716,88.0
171.661,80.0
173.606,84.0
175.549,80.0
177.493,84.0
179.435,90.0
181.377,76.0
183.318,78.0
185.258,78.0
187.199,92.0
189.138,82.0
191.076,82.0
193.014,72.0
194.951,74.0
196.889,76.0
198.825,96.0
200.76,80.0
202.695,68.0
204.628,78.0
206.562,86.0
208.495,94.0
210.427,94.0
212.359,72.0
214.289,74.0
216.22,84.0
218.149,84.0
220.078,80.0
222.006,90.0
223.935,94.0
225.861,92.0
227.788,118.0
229.714,96.0
231.639,88.0
233.563,92.0
235.487,86.0
237.411,84.0
239.333,102.0
241.255,86.0
243.177,88.0
245.098,118.0
247.017,96.0
248.936,108.0
250.855,98.0
252.774,100.0
254.692,112.0
256.608,90.0
258.525,102.0
260.44,116.0
262.355,108.0
264.269,110.0
266.184,110.0
268.096,114.0
270.008,106.0
271.921,110.0
273.832,118.0
275.742,116.0
277.652,146.0
279.561,98.0
281.47,106.0
283.378,128.0
285.286,130.0
287.193,110.0
289.099,132.0
291.005,114.0
292.91,148.0
294.814,134.0
296.718,156.0
298.621,186.0
300.523,198.0
302.425,208.0
304.326,220.0
306.227,218.0
308.126,206.0
310.025,156.0
311.925,164.0
313.823,144.0
315.72,136.0
317.617,122.0
319.513,114.0
321.408,128.0
323.303,112.0
325.197,110.0
327.091,130.0
328.984,100.0
330.877,110.0
332.769,102.0
334.66,98.0
336.55,102.0
338.441,100.0
340.329,92.0
342.219,112.0
344.106,112.0
345.994,94.0
347.881,104.0
349.767,94.0
351.653,96.0
353.538,82.0
355.422,84.0
357.306,94.0
359.189,98.0
361.071,116.0
362.953,98.0
364.834,102.0
366.715,84.0
368.595,72.0
370.475,108.0
372.353,82.0
374.232,78.0
376.109,92.0
377.986,88.0
379.863,68.0
381.738,104.0
383.613,92.0
385.488,98.0
387.362,80.0
389.235,74.0
391.108,72.0
392.979,80.0
394.851,74.0
396.722,94.0
398.592,70.0
400.462,84.0
402.331,82.0
404.199,82.0
406.066,84.0
407.934,66.0
409.801,78.0
411.667,82.0
413.531,68.0
415.396,78.0
417.26,88.0
419.124,58.0
420.986,72.0
422.849,86.0
424.711,82.0
426.571,70.0
428.432,70.0
430.292,70.0
432.151,80.0
434.01,86.0
435.868,74.0
437.725,76.0
439.582,70.0
441.438,78.0
443.294,66.0
445.148,52.0
447.003,64.0
448.857,48.0
450.71,64.0
452.562,66.0
454.414,62.0
456.265,68.0
458.116,56.0
459.966,46.0
461.815,54.0
463.665,58.0
465.513,72.0
467.361,60.0
469.208,68.0
471.054,62.0
472.9,56.0
474.745,72.0
476.59,66.0
478.434,72.0
480.278,66.0
482.121,70.0
483.962,62.0
485.804,70.0
487.646,74.0
489.486,74.0
491.326,72.0
493.165,66.0
495.004,76.0
496.842,76.0
498.679,84.0
500.516,102.0
502.353,92.0
504.188,114.0
506.023,130.0
507.858,184.0
509.692,196.0
511.525,274.0
513.358,442.0
515.19,776.0
517.021,1786.0
518.852,3984.0
520.682,5096.0
522.512,3802.0
524.341,1814.0
526.17,872.0
527.997,494.0
529.824,310.0
531.652,252.0
533.478,164.0
535.303,176.0
537.129,160.0
538.953,144.0
540.776,100.0
542.6,112.0
544.422,80.0
546.244,88.0
548.066,94.0
549.886,86.0
551.706,76.0
553.526,74.0
555.345,86.0
557.163,70.0
558.981,84.0
560.798,62.0
562.615,60.0
564.431,66.0
566.247,66.0
568.062,68.0
569.876,74.0
571.689,72.0
573.502,56.0
575.316,48.0
577.127,66.0
578.939,60.0
580.75,56.0
582.559,44.0
584.369,74.0
586.178,50.0
587.987,50.0
589.794,66.0
591.602,46.0
593.408,60.0
595.214,64.0
597.019,60.0
598.825,44.0
600.629,56.0
602.432,56.0
604.236,50.0
606.038,64.0
607.84,76.0
609.642,64.0
611.442,52.0
613.243,54.0
615.042,72.0
616.842,72.0
618.639,50.0
620.438,58.0
622.235,50.0
624.031,70.0
625.828,52.0
627.624,66.0
629.418,64.0
631.212,54.0
633.007,66.0
634.8,44.0
636.592,58.0
638.384,58.0
640.176,70.0
641.967,70.0
643.758,60.0
645.547,52.0
647.337,70.0
649.125,64.0
650.913,50.0
652.7,56.0
654.487,58.0
656.273,64.0
658.059,56.0
659.844,76.0
661.629,58.0
663.413,74.0
665.197,56.0
666.979,66.0
668.761,60.0
670.543,56.0
672.324,52.0
674.104,58.0
675.884,54.0
677.664,40.0
679.442,62.0
681.221,58.0
682.999,46.0
684.776,44.0
686.552,54.0
688.328,56.0
690.104,58.0
691.878,46.0
693.652,50.0
695.426,44.0
697.199,44.0
698.971,38.0
700.744,38.0
702.515,48.0
704.286,62.0
706.056,44.0
707.825,48.0
709.594,50.0
711.363,46.0
713.131,50.0
714.898,54.0
716.665,44.0
718.431,44.0
720.196,50.0
721.962,44.0
723.726,56.0
725.49,38.0
727.254,60.0
729.017,52.0
730.779,48.0
732.54,50.0
734.301,60.0
736.062,44.0
737.822,48.0
739.581,36.0
741.34,48.0
743.099,50.0
744.856,48.0
746.614,42.0
748.37,42.0
750.126,50.0
751.881,62.0
753.636,52.0
755.39,46.0
757.145,44.0
758.897,44.0
760.65,40.0
762.403,42.0
764.154,50.0
765.905,38.0
767.655,48.0
769.405,52.0
771.154,56.0
772.903,54.0
774.65,48.0
776.398,44.0
778.145,50.0
779.892,54.0
781.637,46.0
783.383,42.0
785.128,38.0
786.871,48.0
788.616,54.0
790.358,24.0
792.101,60.0
793.843,58.0
795.585,44.0
797.326,42.0
799.066,48.0
800.806,48.0
802.544,50.0
804.283,42.0
806.021,60.0
807.759,54.0
809.495,36.0
811.232,36.0
812.967,36.0
814.703,52.0
816.437,44.0
818.172,54.0
819.905,50.0
821.638,52.0
823.37,58.0
825.102,48.0
826.834,46.0
828.564,44.0
830.295,54.0
832.025,46.0
833.754,46.0
835.483,42.0
837.21,38.0
838.938,36.0
840.665,50.0
842.391,48.0
844.117,56.0
845.842,40.0
847.567,40.0
849.291,58.0
851.015,48.0
852.738,44.0
854.461,52.0
856.182,52.0
857.904,50.0
859.625,54.0
861.345,50.0
863.064,42.0
864.784,52.0
866.503,42.0
868.22,50.0
869.938,54.0
871.655,44.0
873.372,58.0
875.088,46.0
876.803,56.0
878.518,42.0
880.232,50.0
881.946,48.0
883.659,50.0
885.372,46.0
887.084,50.0
888.795,50.0
890.507,42.0
892.216,42.0
893.927,66.0
895.636,62.0
897.345,46.0
899.053,50.0
900.761,46.0
902.467,50.0
904.175,56.0
905.881,38.0
907.586,56.0
909.291,68.0
910.995,56.0
912.699,58.0
914.402,42.0
916.105,46.0
917.808,36.0
919.51,38.0
921.21,54.0
922.911,50.0
924.612,54.0
926.311,58.0
928.01,66.0
929.708,78.0
931.406,94.0
933.104,104.0
934.801,98.0
936.497,94.0
938.193,106.0
939.888,106.0
941.583,112.0
943.277,114.0
944.971,118.0
946.663,78.0
948.356,86.0
950.048,76.0
951.739,86.0
953.43,102.0
955.12,94.0
956.811,98.0
958.5,80.0
960.188,86.0
961.876,94.0
963.565,98.0
965.252,84.0
966.939,94.0
968.625,84.0
970.31,78.0
971.995,72.0
973.679,72.0
975.364,82.0
977.046,78.0
978.73,72.0
980.411,70.0
982.094,70.0
983.775,80.0
985.456,76.0
987.136,58.0
988.815,60.0
990.495,66.0
992.173,70.0
993.851,64.0
995.529,52.0
997.206,46.0
998.882,54.0
1000.56,64.0
1002.23,42.0
1003.91,44.0
1005.58,64.0
1007.26,48.0
1008.93,42.0
1010.6,52.0
1012.27,42.0
1013.95,44.0
1015.62,40.0
1017.29,52.0
1018.96,48.0
1020.63,48.0
1022.3,44.0
1023.97,40.0
1025.63,50.0
1027.3,46.0
1028.97,42.0
1030.63,42.0
1032.3,46.0
1033.97,48.0
1035.63,47.0
1037.29,46.0
1038.96,44.0
1040.62,48.0
1042.28,38.0
1043.95,34.0
1045.61,40.0
1047.27,32.0
1048.93,32.0
1050.59,40.0
1052.25,36.0
1053.91,38.0
1055.57,42.0
1057.22,40.0
1058.88,38.0
1060.54,38.0
1062.2,36.0
1063.85,42.0
1065.51,32.0
1067.16,42.0
1068.82,32.0
1070.47,34.0
1072.12,34.0
1073.77,34.0
1075.43,30.0
1077.08,40.0
1078.73,34.0
1080.38,54.0
1082.03,32.0
1083.68,40.0
1085.33,40.0
1086.98,46.0
1088.63,38.0
1090.27,44.0
1091.92,36.0
1093.57,38.0
1095.21,34.0
1096.86,30.0
1098.5,40.0
1100.15,44.0
1101.79,32.0
1103.43,40.0
1105.08,32.0
1106.72,36.0
1108.36,44.0
1110.0,48.0
1111.64,40.0
1113.28,34.0
1114.92,34.0
1116.56,44.0
1118.2,38.0
1119.84,40.0
1121.48,32.0
1123.11,28.0
1124.75,30.0
1126.39,32.0
1128.02,32.0
1129.66,40.0
1131.29,42.0
1132.93,46.0
1134.56,34.0
1136.19,44.0
1137.83,32.0
1139.46,34.0
1141.09,32.0
1142.72,44.0
1144.35,34.0
1145.98,34.0
1147.61,48.0
1149.24,40.0
1150.87,44.0
1152.49,40.0
1154.12,38.0
1155.75,38.0
1157.37,42.0
1159.0,42.0
1160.63,32.0
1162.25,40.0
1163.88,36.0
1165.5,30.0
1167.12,30.0
1168.74,42.0
1170.37,40.0
1171.99,30.0
1173.61,42.0
1175.23,34.0
1176.85,38.0
1178.47,40.0
1180.09,42.0
1181.71,34.0
1183.33,32.0
1184.94,24.0
1186.56,34.0
1188.18,44.0
1189.79,44.0
1191.41,36.0
1193.02,34.0
1194.64,34.0
1196.25,36.0
1197.87,36.0
1199.48,34.0
1201.09,38.0
1202.7,40.0
1204.32,32.0
1205.93,32.0
1207.54,36.0
1209.15,34.0
1210.76,46.0
1212.37,40.0
1213.97,38.0
1215.58,42.0
1217.19,40.0
1218.8,48.0
1220.4,36.0
1222.01,38.0
1223.61,38.0
1225.22,24.0
1226.82,46.0
1228.43,34.0
1230.03,34.0
1231.64,24.0
1233.24,26.0
1234.84,34.0
1236.44,26.0
1238.04,38.0
1239.64,50.0
1241.24,32.0
1242.84,26.0
1244.44,34.0
1246.04,36.0
1247.64,42.0
1249.23,34.0
1250.83,44.0
1252.43,32.0
1254.02,34.0
1255.62,26.0
1257.21,34.0
1258.81,46.0
1260.4,36.0
1262.0,46.0
1263.59,32.0
1265.18,38.0
1266.77,48.0
1268.37,30.0
1269.96,38.0
1271.55,36.0
1273.14,30.0
1274.73,28.0
1276.31,34.0
1277.9,36.0
1279.49,32.0
1281.08,36.0
1282.67,38.0
1284.25,28.0
1285.84,38.0
1287.42,34.0
1289.01,44.0
1290.59,28.0
1292.18,34.0
1293.76,34.0
1295.34,38.0
1296.93,32.0
1298.51,34.0
1300.09,38.0
1301.67,38.0
1303.25,44.0
1304.83,34.0
1306.41,24.0
1307.99,32.0
1309.57,26.0
1311.15,32.0
1312.72,34.0
1314.3,32.0
1315.88,34.0
1317.45,36.0
1319.03,34.0
1320.6,32.0
1322.18,32.0
1323.75,46.0
1325.33,34.0
1326.9,42.0
1328.47,44.0
1330.05,28.0
1331.62,44.0
1333.19,32.0
1334.76,32.0
1336.33,32.0
1337.9,40.0
1339.47,28.0
1341.04,36.0
1342.6,44.0
1344.17,36.0
1345.74,44.0
1347.31,44.0
1348.87,42.0
1350.44,28.0
1352.0,36.0
1353.57,32.0
1355.13,42.0
1356.7,40.0
1358.26,26.0
1359.82,28.0
1361.39,40.0
1362.95,32.0
1364.51,36.0
1366.07,32.0
1367.63,28.0
1369.19,34.0
1370.75,24.0
1372.31,42.0
1373.87,40.0
1375.43,42.0
1376.98,38.0
1378.54,44.0
1380.1,22.0
1381.65,28.0
